File: examples/disc_example.mpt
EC-Lab ASCII FILE
Nb header lines : 72

Cyclic Voltammetry

Run on channel : 2 (SN 11745)
Synchronized channel(s) : 2, 3
User :
Electrode connection : CE to ground
Potential control : Ewe
Ewe ctrl range : min = -2.50 V, max = 2.50 V
Ewe,I filtering : <None>
Safety Limits :
	Do not start on E overload
Channel : Floating
Acquisition started on : 08/27/2023 15:19:54.658
Loaded Setting File :  C:\Users\EES\Documents\EC-Lab\Data\Federico\20230826 - Calibration KOAc no e-cleaning\20230826_FL_HER_Disc Ch2_Ring Ch3_KOAc_50H2O_Au Disc_Pt Ring_Pt CE_AgAgCl LF7_2500 rpm_600 RHE_C02.mps
Saved on :
	File : 20230827_FL_HER_Disc Ch2_Ring Ch3_KOAc_50H2O_Pt Disc_Pt Ring_Pt CE_AgAgCl LF7_2500 rpm_700RHE_05_CV_C02.mpr
	Directory : C:\Users\EES\Documents\EC-Lab\Data\Federico\20230827 - Calibration KOAc lower cleaning\
	Host : 192.168.10.11
Device : VSP-300 (SN 0779)
Address : USB
EC-Lab for windows v11.50 (software)
Internet server v11.50 (firmware)
Command interpretor v11.50 (firmware)
Electrode material :
Initial state :
Electrolyte :
Comments :
Cable : standard
Reference electrode : SCE Saturated Calomel Electrode (0.241 V)
Electrode surface area : 0.001 cm²
Characteristic mass : 0.001 g
Equivalent Weight : 0.000 g/eq.
Density : 0.000 g/cm3
Volume (V) : 0.001 cm³
Record Ece
Record Power
Cycle Definition : Charge/Discharge alternance
External device configuration :
   device type : RDE
   device name : ALS RRDE-3A
   Analog OUT :
      mode : E/V
      unit : speed/rpm
      max : 8000.000 at 8.000 V
      min : 0.000 at 0.000 V
      current : 2500.000
Ei (V)              -0.546
vs.                 Ref
dE/dt               5.000
dE/dt unit          mV/s
E1 (V)              -1.246
vs.                 Ref
Step percent        50
N                   5
E range min (V)     -2.500
E range max (V)     2.500
I Range             1 mA
I Range min         Unset
I Range max         Unset
I Range init        Unset
Bandwidth           5
E2 (V)              -1.246
vs.                 Ref
nc cycles           0
Reverse Scan        0
Ef (V)              0.000
vs.                 Eoc

mode	ox/red	error	control changes	counter inc.	time/s	control/V	Ewe/V	<I>/mA	cycle number	(Q-Qo)/C	I Range	<Ece>/V	P/W	Rcmp/Ohm	Analog OUT/V	step time/s	Ewe-Ece/V
2	0	0	0	0	368.816	-0.546048	-0.546948	-0.00149234	1	0.0000000E+000	40	0.796483	8.16231e-07	0.0000000E+000	2500	0.000000000000000E+000	-1.34343
2	0	0	1	0	369.349	-0.548713	-0.549312	-0.00161543	1	-8.73832e-07	40	0.797105	8.87374e-07	0.0000000E+000	2500	0.3332	-1.34642
2	0	0	1	0	370.016	-0.552044	-0.552468	-0.00169703	1	-2.03051e-06	40	0.798315	9.37554e-07	0.0000000E+000	2500	0.9995	-1.35078
2	0	0	1	0	370.682	-0.555376	-0.555614	-0.00173303	1	-3.22593e-06	40	0.799518	9.62894e-07	0.0000000E+000	2500	1.6658	-1.35513
2	0	0	1	0	371.348	-0.558707	-0.559635	-0.0017854	1	-4.44644e-06	40	0.800707	9.99175e-07	0.0000000E+000	2500	2.332	-1.36034
2	0	0	1	0	372.015	-0.562039	-0.562469	-0.00183789	1	-5.69905e-06	40	0.801981	1.03376e-06	0.0000000E+000	2500	2.9983	-1.36445
2	0	0	1	0	372.681	-0.56537	-0.565219	-0.00186275	1	-6.98481e-06	40	0.803318	1.05286e-06	0.0000000E+000	2500	3.6646	-1.36854
2	0	0	1	0	373.347	-0.568701	-0.568806	-0.00188486	1	-8.28591e-06	40	0.804546	1.07212e-06	0.0000000E+000	2500	4.3309	-1.37335
2	0	0	1	0	374.013	-0.572033	-0.572988	-0.00194057	1	-9.60877e-06	40	0.80592	1.11192e-06	0.0000000E+000	2500	4.9972	-1.37891
2	0	0	1	0	374.68	-0.575364	-0.575734	-0.00197013	1	-1.09541e-05	40	0.807244	1.13427e-06	0.0000000E+000	2500	5.6635	-1.38298
2	0	0	1	0	375.346	-0.578696	-0.579594	-0.00198593	1	-1.2328e-05	40	0.808526	1.15103e-06	0.0000000E+000	2500	6.3298	-1.38812
2	0	0	1	0	376.012	-0.582027	-0.58221	-0.00206872	1	-1.37256e-05	40	0.809962	1.20443e-06	0.0000000E+000	2500	6.996	-1.39217
2	0	0	1	0	376.679	-0.585359	-0.585673	-0.00207028	1	-1.51534e-05	40	0.811223	1.2125e-06	0.0000000E+000	2500	7.6623	-1.3969
2	0	0	1	0	377.345	-0.58869	-0.588596	-0.00212338	1	-1.66035e-05	40	0.812605	1.24981e-06	0.0000000E+000	2500	8.3286	-1.4012
2	0	0	1	0	378.011	-0.592021	-0.592004	-0.00215692	1	-1.80833e-05	40	0.813945	1.2769e-06	0.0000000E+000	2500	8.9949	-1.40595
2	0	0	1	0	378.677	-0.595353	-0.595807	-0.00219417	1	-1.95914e-05	40	0.815337	1.3073e-06	0.0000000E+000	2500	9.6612	-1.41114
2	0	0	1	0	379.344	-0.598684	-0.599183	-0.0022564	1	-2.11268e-05	40	0.81669	1.352e-06	0.0000000E+000	2500	10.3275	-1.41587
2	0	0	1	0	380.01	-0.602016	-0.602323	-0.00231423	1	-2.26954e-05	40	0.818112	1.39391e-06	0.0000000E+000	2500	10.9938	-1.42043
2	0	0	1	0	380.676	-0.605347	-0.606085	-0.00234692	1	-2.42917e-05	40	0.819483	1.42243e-06	0.0000000E+000	2500	11.66	-1.42557
2	0	0	1	0	381.343	-0.608679	-0.608932	-0.00238308	1	-2.59084e-05	40	0.820919	1.45113e-06	0.0000000E+000	2500	12.3263	-1.42985
2	0	0	1	0	382.009	-0.61201	-0.612402	-0.00245566	1	-2.75654e-05	40	0.822337	1.50385e-06	0.0000000E+000	2500	12.9926	-1.43474
2	0	0	1	0	382.675	-0.615341	-0.615643	-0.00245594	1	-2.9246e-05	40	0.823786	1.51198e-06	0.0000000E+000	2500	13.6589	-1.43943
2	0	0	1	0	383.341	-0.618673	-0.619276	-0.00251009	1	-3.0955e-05	40	0.825152	1.55444e-06	0.0000000E+000	2500	14.3252	-1.44443
2	0	0	1	0	384.008	-0.622004	-0.62275	-0.00257312	1	-3.27007e-05	40	0.826658	1.60241e-06	0.0000000E+000	2500	14.9915	-1.44941
2	0	0	1	0	384.674	-0.625336	-0.626103	-0.00258578	1	-3.44818e-05	40	0.828077	1.61896e-06	0.0000000E+000	2500	15.6578	-1.45418
2	0	0	1	0	385.34	-0.628667	-0.629096	-0.00264516	1	-3.62831e-05	40	0.829459	1.66406e-06	0.0000000E+000	2500	16.324	-1.45856
2	0	0	1	0	386.007	-0.631999	-0.631623	-0.00267501	1	-3.81146e-05	40	0.830907	1.6896e-06	0.0000000E+000	2500	16.9903	-1.46253
2	0	0	1	0	386.673	-0.63533	-0.635468	-0.00275772	1	-3.99838e-05	40	0.832325	1.75244e-06	0.0000000E+000	2500	17.6566	-1.46779
2	0	0	1	0	387.339	-0.638661	-0.639043	-0.0027765	1	-4.18748e-05	40	0.833751	1.7743e-06	0.0000000E+000	2500	18.3229	-1.47279
2	0	0	1	0	388.005	-0.641993	-0.642481	-0.00283428	1	-4.38036e-05	40	0.835169	1.82097e-06	0.0000000E+000	2500	18.9892	-1.47765
2	0	0	1	0	388.672	-0.645324	-0.645998	-0.00290702	1	-4.5782e-05	40	0.836588	1.87793e-06	0.0000000E+000	2500	19.6555	-1.48259
2	0	0	1	0	389.338	-0.648656	-0.648656	-0.00296589	1	-4.77919e-05	40	0.838023	1.92384e-06	0.0000000E+000	2500	20.3218	-1.48668
2	0	0	1	0	390.004	-0.651987	-0.652071	-0.00299928	1	-4.98403e-05	40	0.839444	1.95574e-06	0.0000000E+000	2500	20.988	-1.49151
2	0	0	1	0	390.671	-0.655319	-0.655226	-0.00305995	1	-5.19247e-05	40	0.840863	2.00496e-06	0.0000000E+000	2500	21.6543	-1.49609
2	0	0	1	0	391.337	-0.65865	-0.658948	-0.00311526	1	-5.4036e-05	40	0.842335	2.05279e-06	0.0000000E+000	2500	22.3206	-1.50128
2	0	0	1	0	392.003	-0.661982	-0.662038	-0.00321723	1	-5.62035e-05	40	0.843788	2.12993e-06	0.0000000E+000	2500	22.9869	-1.50583
2	0	0	1	0	392.669	-0.665313	-0.666051	-0.00328208	1	-5.84171e-05	40	0.845225	2.18604e-06	0.0000000E+000	2500	23.6532	-1.51128
2	0	0	1	0	393.336	-0.668644	-0.668421	-0.00338763	1	-6.0694e-05	40	0.846699	2.26436e-06	0.0000000E+000	2500	24.3195	-1.51512
2	0	0	1	0	394.002	-0.671976	-0.673107	-0.00345491	1	-6.30162e-05	40	0.848152	2.32552e-06	0.0000000E+000	2500	24.9858	-1.52126
2	0	0	1	0	394.668	-0.675307	-0.675632	-0.00353268	1	-6.53947e-05	40	0.849507	2.38679e-06	0.0000000E+000	2500	25.652	-1.52514
2	0	0	1	0	395.335	-0.678639	-0.678822	-0.00364545	1	-6.78494e-05	40	0.851043	2.47461e-06	0.0000000E+000	2500	26.3183	-1.52986
2	0	0	1	0	396.001	-0.68197	-0.682471	-0.00376515	1	-7.0363e-05	40	0.852515	2.56961e-06	0.0000000E+000	2500	26.9846	-1.53499
2	0	0	1	0	396.667	-0.685301	-0.685861	-0.00388417	1	-7.2954e-05	40	0.853952	2.664e-06	0.0000000E+000	2500	27.6509	-1.53981
2	0	0	1	0	397.333	-0.688633	-0.688879	-0.00403558	1	-7.56506e-05	40	0.855485	2.78002e-06	0.0000000E+000	2500	28.3172	-1.54436
2	0	0	1	0	398	-0.691964	-0.692502	-0.00420757	1	-7.84485e-05	40	0.857065	2.91375e-06	0.0000000E+000	2500	28.9835	-1.54957
2	0	0	1	0	398.666	-0.695296	-0.695896	-0.00438101	1	-8.13668e-05	40	0.858761	3.04873e-06	0.0000000E+000	2500	29.6498	-1.55466
2	0	0	1	0	399.332	-0.698627	-0.698909	-0.00457619	1	-8.43958e-05	40	0.860277	3.19834e-06	0.0000000E+000	2500	30.316	-1.55919
2	0	0	1	0	399.999	-0.701959	-0.70305	-0.00479407	1	-8.75739e-05	40	0.862046	3.37047e-06	0.0000000E+000	2500	30.9824	-1.5651
2	0	0	1	0	400.665	-0.70529	-0.705756	-0.00505661	1	-9.09164e-05	40	0.863793	3.56873e-06	0.0000000E+000	2500	31.6486	-1.56955
2	0	0	1	0	401.331	-0.708622	-0.709291	-0.00535093	1	-9.44374e-05	40	0.865619	3.79537e-06	0.0000000E+000	2500	32.3149	-1.57491
2	0	0	1	0	401.997	-0.711953	-0.712544	-0.00568473	1	-9.81684e-05	40	0.867543	4.05062e-06	0.0000000E+000	2500	32.9812	-1.58009
2	0	0	1	0	402.664	-0.715284	-0.715371	-0.00604278	1	-0.000102135	40	0.869539	4.32283e-06	0.0000000E+000	2500	33.6475	-1.58491
2	0	0	1	0	403.33	-0.718616	-0.719255	-0.00644666	1	-0.000106354	40	0.871596	4.63679e-06	0.0000000E+000	2500	34.3138	-1.59085
2	0	0	1	0	403.996	-0.721947	-0.722186	-0.00689585	1	-0.000110855	40	0.87385	4.98008e-06	0.0000000E+000	2500	34.9801	-1.59604
2	0	0	1	0	404.663	-0.725279	-0.72565	-0.00739956	1	-0.000115677	40	0.87615	5.36949e-06	0.0000000E+000	2500	35.6464	-1.6018
2	0	0	1	0	405.329	-0.72861	-0.72908	-0.00791852	1	-0.000120836	40	0.878522	5.77323e-06	0.0000000E+000	2500	36.3126	-1.6076
2	0	0	1	0	405.995	-0.731942	-0.732783	-0.00848305	1	-0.000126367	40	0.881034	6.21623e-06	0.0000000E+000	2500	36.9789	-1.61382
2	0	0	1	0	406.661	-0.735273	-0.735273	-0.00907981	1	-0.000132283	40	0.883572	6.67614e-06	0.0000000E+000	2500	37.6452	-1.61885
2	0	0	1	0	407.328	-0.738604	-0.739062	-0.00970645	1	-0.000138607	40	0.886256	7.17366e-06	0.0000000E+000	2500	38.3115	-1.62532
2	0	0	1	0	407.994	-0.741936	-0.742258	-0.0103759	1	-0.00014537	40	0.888938	7.70159e-06	0.0000000E+000	2500	38.9778	-1.6312
2	0	0	1	0	408.66	-0.745267	-0.745916	-0.0110817	1	-0.000152585	40	0.891752	8.26604e-06	0.0000000E+000	2500	39.644	-1.63767
2	0	0	1	0	409.327	-0.748599	-0.749154	-0.0117831	1	-0.000160261	40	0.894522	8.82737e-06	0.0000000E+000	2500	40.3103	-1.64368
2	0	0	1	0	409.993	-0.75193	-0.752422	-0.0125023	1	-0.000168416	40	0.897344	9.40704e-06	0.0000000E+000	2500	40.9766	-1.64977
2	0	0	1	0	410.659	-0.755262	-0.755697	-0.0132645	1	-0.000177073	40	0.900175	1.00239e-05	0.0000000E+000	2500	41.6429	-1.65587
2	0	0	1	0	411.325	-0.758593	-0.759001	-0.0140399	1	-0.000186239	40	0.902989	1.06563e-05	0.0000000E+000	2500	42.3092	-1.66199
2	0	0	1	0	411.992	-0.761924	-0.762688	-0.0147834	1	-0.000195905	40	0.905878	1.12751e-05	0.0000000E+000	2500	42.9755	-1.66857
2	0	0	1	0	412.658	-0.765256	-0.765392	-0.0155548	1	-0.000206088	40	0.908709	1.19056e-05	0.0000000E+000	2500	43.6418	-1.6741
2	0	0	1	0	413.324	-0.768587	-0.769244	-0.0163441	1	-0.000216781	40	0.911421	1.25726e-05	0.0000000E+000	2500	44.308	-1.68067
2	0	0	1	0	413.991	-0.771919	-0.772493	-0.0171297	1	-0.000227995	40	0.914172	1.32326e-05	0.0000000E+000	2500	44.9744	-1.68666
2	0	0	1	0	414.657	-0.77525	-0.775803	-0.0179263	1	-0.000239738	40	0.916837	1.39073e-05	0.0000000E+000	2500	45.6406	-1.69264
2	0	0	1	0	415.323	-0.778582	-0.778327	-0.0187104	1	-0.000252012	40	0.919476	1.45628e-05	0.0000000E+000	2500	46.3069	-1.6978
2	0	0	1	0	415.989	-0.781913	-0.782169	-0.0195122	1	-0.000264812	40	0.922045	1.52618e-05	0.0000000E+000	2500	46.9732	-1.70421
2	0	0	1	0	416.656	-0.785244	-0.785519	-0.020297	1	-0.000278144	40	0.924497	1.59436e-05	0.0000000E+000	2500	47.6395	-1.71002
2	0	0	1	0	417.322	-0.788576	-0.788977	-0.0211079	1	-0.000292004	40	0.926995	1.66537e-05	0.0000000E+000	2500	48.3058	-1.71597
2	0	0	1	0	417.988	-0.791907	-0.792081	-0.0218873	1	-0.000306391	40	0.929419	1.73365e-05	0.0000000E+000	2500	48.9721	-1.7215
2	0	0	1	0	418.655	-0.795239	-0.795896	-0.0227026	1	-0.00032131	40	0.931755	1.80689e-05	0.0000000E+000	2500	49.6384	-1.72765
2	0	0	1	0	419.321	-0.79857	-0.799017	-0.0234719	1	-0.00033676	40	0.934013	1.87544e-05	0.0000000E+000	2500	50.3046	-1.73303
2	0	0	1	0	419.987	-0.801902	-0.80244	-0.0242803	1	-0.00035274	40	0.93624	1.94835e-05	0.0000000E+000	2500	50.9709	-1.73868
2	0	0	1	0	420.653	-0.805233	-0.805499	-0.02511	1	-0.000369252	40	0.938514	2.0226e-05	0.0000000E+000	2500	51.6372	-1.74401
2	0	0	1	0	421.32	-0.808564	-0.809279	-0.0258625	1	-0.000386295	40	0.940654	2.093e-05	0.0000000E+000	2500	52.3035	-1.74993
2	0	0	1	0	421.986	-0.811896	-0.812379	-0.0266463	1	-0.000403859	40	0.942702	2.16469e-05	0.0000000E+000	2500	52.9698	-1.75508
2	0	0	1	0	422.652	-0.815227	-0.815717	-0.0274731	1	-0.000421958	40	0.944746	2.24103e-05	0.0000000E+000	2500	53.6361	-1.76046
2	0	0	1	0	423.319	-0.818559	-0.819076	-0.0282743	1	-0.000440603	40	0.946764	2.31588e-05	0.0000000E+000	2500	54.3024	-1.76584
2	0	0	1	0	423.985	-0.82189	-0.822759	-0.0290886	1	-0.000459786	40	0.948729	2.39329e-05	0.0000000E+000	2500	54.9686	-1.77149
2	0	0	1	0	424.651	-0.825222	-0.825712	-0.0299115	1	-0.000479509	40	0.950643	2.46983e-05	0.0000000E+000	2500	55.6349	-1.77635
2	0	0	1	0	425.317	-0.828553	-0.829099	-0.0307047	1	-0.000499778	40	0.952518	2.54572e-05	0.0000000E+000	2500	56.3012	-1.78162
2	0	0	1	0	425.984	-0.831884	-0.831939	-0.0315498	1	-0.000520589	40	0.954402	2.62475e-05	0.0000000E+000	2500	56.9675	-1.78634
2	0	0	1	0	426.65	-0.835216	-0.835822	-0.0323825	1	-0.000541958	40	0.956197	2.7066e-05	0.0000000E+000	2500	57.6338	-1.79202
2	0	0	1	0	427.316	-0.838547	-0.838896	-0.0332018	1	-0.000563872	40	0.957905	2.78528e-05	0.0000000E+000	2500	58.3001	-1.7968
2	0	0	1	0	427.983	-0.841879	-0.842545	-0.0340841	1	-0.000586356	40	0.959661	2.87174e-05	0.0000000E+000	2500	58.9664	-1.80221
2	0	0	1	0	428.649	-0.84521	-0.84592	-0.0349459	1	-0.000609403	40	0.961389	2.95614e-05	0.0000000E+000	2500	59.6326	-1.80731
2	0	0	1	0	429.315	-0.848542	-0.848861	-0.0357768	1	-0.000633042	40	0.963037	3.03695e-05	0.0000000E+000	2500	60.2989	-1.8119
2	0	0	1	0	429.981	-0.851873	-0.852341	-0.0366811	1	-0.000657255	40	0.964676	3.12648e-05	0.0000000E+000	2500	60.9652	-1.81702
2	0	0	1	0	430.648	-0.855205	-0.855726	-0.0375609	1	-0.000682059	40	0.966284	3.21418e-05	0.0000000E+000	2500	61.6315	-1.82201
2	0	0	1	0	431.314	-0.858536	-0.858749	-0.0384921	1	-0.000707469	40	0.967909	3.30551e-05	0.0000000E+000	2500	62.2978	-1.82666
2	0	0	1	0	431.98	-0.861867	-0.862294	-0.0394451	1	-0.00073351	40	0.969522	3.40132e-05	0.0000000E+000	2500	62.9641	-1.83182
2	0	0	1	0	432.647	-0.865199	-0.865862	-0.0404028	1	-0.000760174	40	0.971079	3.49833e-05	0.0000000E+000	2500	63.6304	-1.83694
2	0	0	1	0	433.313	-0.86853	-0.868889	-0.0413551	1	-0.000787479	40	0.972636	3.59329e-05	0.0000000E+000	2500	64.2966	-1.84152
2	0	0	1	0	433.979	-0.871862	-0.872295	-0.0423625	1	-0.000815454	40	0.974215	3.69527e-05	0.0000000E+000	2500	64.9629	-1.84651
2	0	0	1	0	434.645	-0.875193	-0.875676	-0.043397	1	-0.000844095	40	0.975723	3.80017e-05	0.0000000E+000	2500	65.6292	-1.8514
2	0	0	1	0	435.312	-0.878524	-0.879055	-0.0444556	1	-0.000873437	40	0.977333	3.90789e-05	0.0000000E+000	2500	66.2955	-1.85639
2	0	0	1	0	435.978	-0.881856	-0.882275	-0.0455104	1	-0.00090349	40	0.978778	4.01527e-05	0.0000000E+000	2500	66.9618	-1.86105
2	0	0	1	0	436.644	-0.885187	-0.885338	-0.0466095	1	-0.000934254	40	0.980315	4.12652e-05	0.0000000E+000	2500	67.6281	-1.86565
2	0	0	1	0	437.311	-0.888519	-0.888733	-0.0477622	1	-0.000965763	40	0.98177	4.24479e-05	0.0000000E+000	2500	68.2944	-1.8705
2	0	0	1	0	437.977	-0.89185	-0.892498	-0.0489164	1	-0.000998049	40	0.9833	4.36578e-05	0.0000000E+000	2500	68.9606	-1.8758
2	0	0	1	0	438.643	-0.895182	-0.895667	-0.0501148	1	-0.00103112	40	0.984782	4.48862e-05	0.0000000E+000	2500	69.6269	-1.88045
2	0	0	1	0	439.309	-0.898513	-0.89871	-0.0513398	1	-0.00106501	40	0.986233	4.61396e-05	0.0000000E+000	2500	70.2932	-1.88494
2	0	0	1	0	439.976	-0.901844	-0.902598	-0.0526304	1	-0.00109974	40	0.987759	4.75041e-05	0.0000000E+000	2500	70.9595	-1.89036
2	0	0	1	0	440.642	-0.905176	-0.905509	-0.0539706	1	-0.00113533	40	0.989189	4.88709e-05	0.0000000E+000	2500	71.6258	-1.8947
2	0	0	1	0	441.308	-0.908507	-0.908962	-0.0552753	1	-0.0011718	40	0.990667	5.02432e-05	0.0000000E+000	2500	72.2921	-1.89963
2	0	0	1	0	441.975	-0.911839	-0.912648	-0.0566855	1	-0.00120919	40	0.99212	5.17339e-05	0.0000000E+000	2500	72.9584	-1.90477
2	0	0	1	0	442.641	-0.91517	-0.916067	-0.058092	1	-0.0012475	40	0.993585	5.32161e-05	0.0000000E+000	2500	73.6246	-1.90965
2	0	0	1	0	443.307	-0.918502	-0.918686	-0.0595321	1	-0.0012868	40	0.995033	5.46913e-05	0.0000000E+000	2500	74.2909	-1.91372
2	0	0	1	0	443.973	-0.921833	-0.92197	-0.0610784	1	-0.00132707	40	0.996513	5.63124e-05	0.0000000E+000	2500	74.9572	-1.91848
2	0	0	1	0	444.64	-0.925165	-0.925487	-0.0625773	1	-0.0013684	40	0.998025	5.79145e-05	0.0000000E+000	2500	75.6235	-1.92351
2	0	0	1	0	445.306	-0.928496	-0.928423	-0.0641763	1	-0.00141073	40	0.999406	5.95827e-05	0.0000000E+000	2500	76.2898	-1.92783
2	0	0	1	0	445.972	-0.931827	-0.93275	-0.0658055	1	-0.00145412	40	1.00085	6.138e-05	0.0000000E+000	2500	76.9561	-1.9336
2	0	0	1	0	446.639	-0.935159	-0.935271	-0.0674361	1	-0.0014986	40	1.00226	6.3071e-05	0.0000000E+000	2500	77.6224	-1.93753
2	0	0	1	0	447.305	-0.93849	-0.93905	-0.0691384	1	-0.00154419	40	1.00367	6.49244e-05	0.0000000E+000	2500	78.2886	-1.94272
2	0	0	1	0	447.971	-0.941822	-0.941956	-0.0708583	1	-0.00159092	40	1.00511	6.67453e-05	0.0000000E+000	2500	78.9549	-1.94707
2	0	0	1	0	448.637	-0.945153	-0.945569	-0.0726519	1	-0.00163882	40	1.00651	6.86974e-05	0.0000000E+000	2500	79.6212	-1.95208
2	0	0	1	0	449.304	-0.948485	-0.94888	-0.0744402	1	-0.00168791	40	1.00788	7.06348e-05	0.0000000E+000	2500	80.2875	-1.95676
2	0	0	1	0	449.97	-0.951816	-0.952197	-0.0762376	1	-0.00173822	40	1.00922	7.25932e-05	0.0000000E+000	2500	80.9538	-1.96142
2	0	0	1	0	450.636	-0.955147	-0.955256	-0.0781524	1	-0.00178974	40	1.01054	7.46556e-05	0.0000000E+000	2500	81.6201	-1.9658
2	0	0	1	0	451.303	-0.958479	-0.958817	-0.0800315	1	-0.00184253	40	1.01195	7.67356e-05	0.0000000E+000	2500	82.2864	-1.97076
2	0	0	1	0	451.969	-0.96181	-0.962133	-0.0819813	1	-0.00189661	40	1.01334	7.88769e-05	0.0000000E+000	2500	82.9526	-1.97548
2	0	0	1	0	452.635	-0.965142	-0.965571	-0.0839594	1	-0.00195199	40	1.01464	8.10687e-05	0.0000000E+000	2500	83.6189	-1.98021
2	0	0	1	0	453.301	-0.968473	-0.968822	-0.0859693	1	-0.00200872	40	1.01595	8.32889e-05	0.0000000E+000	2500	84.2852	-1.98477
2	0	0	1	0	453.968	-0.971804	-0.972214	-0.0881392	1	-0.00206684	40	1.01734	8.56902e-05	0.0000000E+000	2500	84.9515	-1.98956
2	0	0	1	0	454.634	-0.975136	-0.97546	-0.0902578	1	-0.00212639	40	1.01868	8.80428e-05	0.0000000E+000	2500	85.6178	-1.99414
2	0	0	1	0	455.3	-0.978467	-0.978489	-0.0925384	1	-0.0021874	40	1.02007	9.05478e-05	0.0000000E+000	2500	86.2841	-1.99856
2	0	0	1	0	455.967	-0.981799	-0.981758	-0.0947915	1	-0.00224991	40	1.0213	9.30623e-05	0.0000000E+000	2500	86.9504	-2.00306
2	0	0	1	0	456.633	-0.98513	-0.985314	-0.0972218	1	-0.00231398	40	1.02273	9.5794e-05	0.0000000E+000	2500	87.6166	-2.00804
2	0	0	1	0	457.299	-0.988462	-0.989205	-0.0997732	1	-0.00237972	40	1.02412	9.86962e-05	0.0000000E+000	2500	88.2829	-2.01333
2	0	0	1	0	457.965	-0.991793	-0.992227	-0.10236	1	-0.00244716	40	1.02549	0.000101564	0.0000000E+000	2500	88.9492	-2.01771
2	0	0	1	0	458.632	-0.995125	-0.99534	-0.105045	1	-0.00251638	40	1.0269	0.000104556	0.0000000E+000	2500	89.6155	-2.02224
2	0	0	1	0	459.298	-0.998456	-0.998835	-0.107893	1	-0.00258745	40	1.0283	0.000107767	0.0000000E+000	2500	90.2818	-2.02714
2	0	0	1	0	459.964	-1.00179	-1.00216	-0.110867	1	-0.00266044	40	1.02976	0.000111106	0.0000000E+000	2500	90.9481	-2.03192
2	0	0	1	0	460.631	-1.00512	-1.00533	-0.113916	1	-0.00273545	40	1.03119	0.000114524	0.0000000E+000	2500	91.6144	-2.03652
2	0	0	1	0	461.297	-1.00845	-1.00923	-0.117052	1	-0.00281252	40	1.03267	0.000118132	0.0000000E+000	2500	92.2806	-2.0419
2	0	0	1	0	461.963	-1.01178	-1.01214	-0.120331	1	-0.00289173	40	1.03408	0.000121792	0.0000000E+000	2500	92.9469	-2.04622
2	0	0	1	0	462.629	-1.01511	-1.01562	-0.123741	1	-0.00297317	40	1.0356	0.000125674	0.0000000E+000	2500	93.6132	-2.05122
2	0	0	1	0	463.296	-1.01844	-1.01874	-0.1272	1	-0.00305692	40	1.03708	0.000129584	0.0000000E+000	2500	94.2795	-2.05582
2	0	0	1	0	463.962	-1.02178	-1.02196	-0.130764	1	-0.00314303	40	1.03854	0.000133636	0.0000000E+000	2500	94.9458	-2.0605
2	0	0	1	0	464.628	-1.02511	-1.02574	-0.134461	1	-0.00323156	40	1.04001	0.000137923	0.0000000E+000	2500	95.6121	-2.06575
2	0	0	1	0	465.295	-1.02844	-1.02908	-0.138329	1	-0.00332263	40	1.04158	0.000142351	0.0000000E+000	2500	96.2784	-2.07066
2	0	0	1	0	465.961	-1.03177	-1.03201	-0.142215	1	-0.00341625	40	1.04302	0.000146767	0.0000000E+000	2500	96.9446	-2.07503
2	0	0	1	0	466.627	-1.0351	-1.03545	-0.146345	1	-0.00351256	40	1.04457	0.000151533	0.0000000E+000	2500	97.6109	-2.08001
2	0	0	1	0	467.293	-1.03843	-1.03856	-0.150424	1	-0.0036116	40	1.04606	0.000156225	0.0000000E+000	2500	98.2772	-2.08462
2	0	0	1	0	467.96	-1.04176	-1.04214	-0.154743	1	-0.00371345	40	1.04756	0.000161264	0.0000000E+000	2500	98.9435	-2.0897
2	0	0	1	0	468.626	-1.0451	-1.04569	-0.159088	1	-0.00381819	40	1.04913	0.000166357	0.0000000E+000	2500	99.6098	-2.09483
2	0	0	1	0	469.292	-1.04843	-1.0485	-0.163583	1	-0.00392585	40	1.05069	0.000171518	0.0000000E+000	2500	100.276	-2.0992
2	0	0	1	0	469.959	-1.05176	-1.0523	-0.168253	1	-0.00403658	40	1.0522	0.000177053	0.0000000E+000	2500	100.942	-2.1045
2	0	0	1	0	470.625	-1.05509	-1.0557	-0.172935	1	-0.00415041	40	1.05379	0.000182567	0.0000000E+000	2500	101.609	-2.10949
2	0	0	1	0	471.291	-1.05842	-1.05893	-0.177731	1	-0.00426742	40	1.05528	0.000188204	0.0000000E+000	2500	102.275	-2.1142
2	0	0	1	0	471.957	-1.06175	-1.0624	-0.182838	1	-0.00438775	40	1.05688	0.000194246	0.0000000E+000	2500	102.941	-2.11928
2	0	0	1	0	472.624	-1.06508	-1.06561	-0.187911	1	-0.00451145	40	1.05836	0.000200241	0.0000000E+000	2500	103.607	-2.12397
2	0	0	1	0	473.29	-1.06842	-1.06882	-0.193265	1	-0.00463868	40	1.05994	0.000206565	0.0000000E+000	2500	104.274	-2.12876
2	0	0	1	0	473.956	-1.07175	-1.07212	-0.198577	1	-0.00476942	40	1.06152	0.000212899	0.0000000E+000	2500	104.94	-2.13365
2	0	0	1	0	474.623	-1.07508	-1.07573	-0.204035	1	-0.00490376	40	1.06308	0.000219485	0.0000000E+000	2500	105.606	-2.13881
2	0	0	1	0	475.289	-1.07841	-1.07855	-0.209677	1	-0.00504177	40	1.06472	0.000226149	0.0000000E+000	2500	106.273	-2.14327
2	0	0	1	0	475.955	-1.08174	-1.08224	-0.215362	1	-0.00518358	40	1.06628	0.000233074	0.0000000E+000	2500	106.939	-2.14852
2	0	0	1	0	476.621	-1.08507	-1.08553	-0.221196	1	-0.00532925	40	1.06786	0.000240116	0.0000000E+000	2500	107.605	-2.15339
2	0	0	1	0	477.288	-1.0884	-1.08904	-0.227168	1	-0.00547884	40	1.06944	0.000247394	0.0000000E+000	2500	108.271	-2.15848
2	0	0	1	0	477.954	-1.09174	-1.09204	-0.233269	1	-0.0056325	40	1.07102	0.000254738	0.0000000E+000	2500	108.938	-2.16306
2	0	0	1	0	478.62	-1.09507	-1.09529	-0.239611	1	-0.00579026	40	1.07264	0.000262443	0.0000000E+000	2500	109.604	-2.16792
2	0	0	1	0	479.287	-1.0984	-1.0986	-0.245988	1	-0.00595228	40	1.07415	0.000270242	0.0000000E+000	2500	110.27	-2.17275
2	0	0	1	0	479.953	-1.10173	-1.10257	-0.252532	1	-0.00611861	40	1.07574	0.000278435	0.0000000E+000	2500	110.937	-2.17831
2	0	0	1	0	480.619	-1.10506	-1.10586	-0.259278	1	-0.00628934	40	1.07734	0.000286724	0.0000000E+000	2500	111.603	-2.1832
2	0	0	1	0	481.285	-1.10839	-1.10854	-0.266121	1	-0.00646463	40	1.07901	0.000295006	0.0000000E+000	2500	112.269	-2.18755
2	0	0	1	0	481.952	-1.11172	-1.1121	-0.273131	1	-0.00664453	40	1.08068	0.000303748	0.0000000E+000	2500	112.935	-2.19278
2	0	0	1	0	482.618	-1.11506	-1.1156	-0.280539	1	-0.00682928	40	1.08235	0.000312969	0.0000000E+000	2500	113.602	-2.19795
2	0	0	1	0	483.284	-1.11839	-1.11826	-0.287762	1	-0.00701886	40	1.08401	0.000321793	0.0000000E+000	2500	114.268	-2.20227
2	0	0	1	0	483.951	-1.12172	-1.12208	-0.295315	1	-0.00721345	40	1.08569	0.000331368	0.0000000E+000	2500	114.934	-2.20777
2	0	0	1	0	484.617	-1.12505	-1.12615	-0.302948	1	-0.007413	40	1.08749	0.000341165	0.0000000E+000	2500	115.601	-2.21364
2	0	0	1	0	485.283	-1.12838	-1.12917	-0.311024	1	-0.00761785	40	1.0892	0.000351199	0.0000000E+000	2500	116.267	-2.21837
2	0	0	1	0	485.949	-1.13171	-1.13247	-0.319239	1	-0.0078281	40	1.09093	0.000361529	0.0000000E+000	2500	116.933	-2.2234
2	0	0	1	0	486.616	-1.13504	-1.13517	-0.32734	1	-0.00804375	40	1.09262	0.000371588	0.0000000E+000	2500	117.599	-2.22779
2	0	0	1	0	487.282	-1.13838	-1.13899	-0.335993	1	-0.00826507	40	1.09438	0.000382692	0.0000000E+000	2500	118.266	-2.23337
2	0	0	1	0	487.948	-1.14171	-1.14182	-0.344844	1	-0.00849218	40	1.09611	0.000393748	0.0000000E+000	2500	118.932	-2.23793
2	0	0	1	0	488.615	-1.14504	-1.14564	-0.353699	1	-0.0087252	40	1.09776	0.000405211	0.0000000E+000	2500	119.598	-2.24339
2	0	0	1	0	489.281	-1.14837	-1.1494	-0.362627	1	-0.00896408	40	1.0994	0.000416804	0.0000000E+000	2500	120.265	-2.2488
2	0	0	1	0	489.947	-1.1517	-1.15213	-0.371695	1	-0.00920905	40	1.10127	0.000428242	0.0000000E+000	2500	120.931	-2.2534
2	0	0	1	0	490.613	-1.15503	-1.15586	-0.381382	1	-0.00946022	40	1.1031	0.000440824	0.0000000E+000	2500	121.597	-2.25896
2	0	0	1	0	491.28	-1.15836	-1.15874	-0.391462	1	-0.009718	40	1.10483	0.000453602	0.0000000E+000	2500	122.263	-2.26356
2	0	0	1	0	491.946	-1.1617	-1.16199	-0.40132	1	-0.00998238	40	1.10664	0.00046633	0.0000000E+000	2500	122.93	-2.26863
2	0	0	1	0	492.612	-1.16503	-1.16529	-0.411541	1	-0.0102535	40	1.10843	0.000479566	0.0000000E+000	2500	123.596	-2.27372
2	0	0	1	0	493.279	-1.16836	-1.16892	-0.421867	1	-0.0105316	40	1.11034	0.000493127	0.0000000E+000	2500	124.262	-2.27925
2	0	0	1	0	493.945	-1.17169	-1.17227	-0.432617	1	-0.0108166	40	1.11236	0.000507142	0.0000000E+000	2500	124.929	-2.28463
2	0	0	1	0	494.611	-1.17502	-1.17506	-0.443566	1	-0.0111089	40	1.11422	0.000521216	0.0000000E+000	2500	125.595	-2.28928
2	0	0	1	0	495.277	-1.17835	-1.17858	-0.454655	1	-0.0114086	40	1.11612	0.000535847	0.0000000E+000	2500	126.261	-2.2947
2	0	0	1	0	495.944	-1.18168	-1.18216	-0.466162	1	-0.0117157	40	1.11803	0.000551077	0.0000000E+000	2500	126.927	-2.30018
2	0	0	1	0	496.61	-1.18502	-1.18533	-0.477798	1	-0.0120306	40	1.11986	0.000566347	0.0000000E+000	2500	127.594	-2.30519
2	0	0	1	0	497.276	-1.18835	-1.18901	-0.489645	1	-0.0123532	40	1.12195	0.000582191	0.0000000E+000	2500	128.26	-2.31096
2	0	0	1	0	497.943	-1.19168	-1.19233	-0.50179	1	-0.0126839	40	1.12385	0.000598298	0.0000000E+000	2500	128.926	-2.31618
2	0	0	1	0	498.609	-1.19501	-1.19558	-0.51417	1	-0.0130228	40	1.12591	0.000614732	0.0000000E+000	2500	129.593	-2.32149
2	0	0	1	0	499.275	-1.19834	-1.1987	-0.526825	1	-0.0133699	40	1.12814	0.000631503	0.0000000E+000	2500	130.259	-2.32683
2	0	0	1	0	499.941	-1.20167	-1.20216	-0.539751	1	-0.0137257	40	1.1302	0.000648865	0.0000000E+000	2500	130.925	-2.33235
2	0	0	1	0	500.608	-1.205	-1.20524	-0.55291	1	-0.0140901	40	1.13219	0.000666391	0.0000000E+000	2500	131.591	-2.33743
2	0	0	1	0	501.274	-1.20834	-1.20874	-0.566482	1	-0.0144634	40	1.13418	0.000684732	0.0000000E+000	2500	132.258	-2.34293
2	0	0	1	0	501.94	-1.21167	-1.21287	-0.580399	1	-0.0148459	40	1.13629	0.000703947	0.0000000E+000	2500	132.924	-2.34915
2	0	0	1	0	502.607	-1.215	-1.21588	-0.594568	1	-0.0152378	40	1.13816	0.000722922	0.0000000E+000	2500	133.59	-2.35403
2	0	0	1	0	503.273	-1.21833	-1.21886	-0.609023	1	-0.0156391	40	1.1403	0.000742315	0.0000000E+000	2500	134.257	-2.35917
2	0	0	1	0	503.939	-1.22166	-1.2214	-0.623936	1	-0.0160503	40	1.14243	0.000762073	0.0000000E+000	2500	134.923	-2.36383
2	0	0	1	0	504.605	-1.22499	-1.22497	-0.637894	1	-0.016471	40	1.14437	0.0007814	0.0000000E+000	2500	135.589	-2.36934
2	0	0	1	0	505.272	-1.22832	-1.22763	-0.652742	1	-0.0169015	40	1.1464	0.000801325	0.0000000E+000	2500	136.255	-2.37403
2	0	0	1	0	505.938	-1.23166	-1.23206	-0.668111	1	-0.0173421	40	1.14849	0.000823152	0.0000000E+000	2500	136.922	-2.38054
2	0	0	1	0	506.604	-1.23499	-1.23584	-0.683725	1	-0.0177929	40	1.15076	0.000844972	0.0000000E+000	2500	137.588	-2.38659
2	0	0	1	0	507.271	-1.23832	-1.23894	-0.699936	1	-0.0182543	40	1.15264	0.00086718	0.0000000E+000	2500	138.254	-2.39158
2	0	0	1	0	507.937	-1.24165	-1.242	-0.716558	1	-0.0187269	40	1.15473	0.000889964	0.0000000E+000	2500	138.921	-2.39673
2	0	0	1	0	508.603	-1.24498	-1.24508	-0.732927	1	-0.0192103	40	1.15684	0.00091255	0.0000000E+000	2500	139.587	-2.40191
2	0	0	0	0	508.774	-1.24598	-1.24605	-0.730365	1	-0.0193356	40	1.16247	0.000910072	0.0000000E+000	2500	139.758	-2.40852