File: examples/mptexample.mpt
EC-Lab ASCII FILE
Nb header lines : 72

Cyclic Voltammetry

Run on channel : 2 (SN 11745)
Synchronized channel(s) : 2, 3
User :
Electrode connection : CE to ground
Potential control : Ewe
Ewe ctrl range : min = -2.50 V, max = 2.50 V
Ewe,I filtering : <None>
Safety Limits :
	Do not start on E overload
Channel : Floating
Acquisition started on : 08/27/2023 15:00:27.310
Loaded Setting File :  C:\Users\EES\Documents\EC-Lab\Data\Federico\20230826 - Calibration KOAc no e-cleaning\20230826_FL_HER_Disc Ch2_Ring Ch3_KOAc_50H2O_Au Disc_Pt Ring_Pt CE_AgAgCl LF7_2500 rpm_600 RHE_C02.mps
Saved on :
	File : 20230827_FL_HER_Disc Ch2_Ring Ch3_KOAc_50H2O_Pt Disc_Pt Ring_Pt CE_AgAgCl LF7_2500 rpm_600RHE_4_05_CV_C02.mpr
	Directory : C:\Users\EES\Documents\EC-Lab\Data\Federico\20230827 - Calibration KOAc lower cleaning\
	Host : 192.168.10.11
Device : VSP-300 (SN 0779)
Address : USB
EC-Lab for windows v11.50 (software)
Internet server v11.50 (firmware)
Command interpretor v11.50 (firmware)
Electrode material :
Initial state :
Electrolyte :
Comments :
Cable : standard
Reference electrode : SCE Saturated Calomel Electrode (0.241 V)
Electrode surface area : 0.001 cm²
Characteristic mass : 0.001 g
Equivalent Weight : 0.000 g/eq.
Density : 0.000 g/cm3
Volume (V) : 0.001 cm³
Record Ece
Record Power
Cycle Definition : Charge/Discharge alternance
External device configuration :
   device type : RDE
   device name : ALS RRDE-3A
   Analog OUT :
      mode : E/V
      unit : speed/rpm
      max : 8000.000 at 8.000 V
      min : 0.000 at 0.000 V
      current : 2500.000
Ei (V)              -0.546
vs.                 Ref
dE/dt               5.000
dE/dt unit          mV/s
E1 (V)              -1.246
vs.                 Ref
Step percent        50
N                   5
E range min (V)     -2.500
E range max (V)     2.500
I Range             1 mA
I Range min         Unset
I Range max         Unset
I Range init        Unset
Bandwidth           5
E2 (V)              -1.246
vs.                 Ref
nc cycles           0
Reverse Scan        0
Ef (V)              0.000
vs.                 Eoc

mode	ox/red	error	control changes	counter inc.	time/s	control/V	Ewe/V	<I>/mA	cycle number	(Q-Qo)/C	I Range	<Ece>/V	P/W	Rcmp/Ohm	Analog OUT/V	step time/s	Ewe-Ece/V
2	0	0	1	0	368.832	-0.546048	-0.546884	-0.00200349	1	0.0000000E+000	40	0.832896	1.09568e-06	0.0000000E+000	2500	0.000000000000000E+000	-1.37978
2	0	0	1	0	369.365	-0.548713	-0.549205	-0.00164845	1	-8.78688e-07	40	0.834036	9.05335e-07	0.0000000E+000	2500	0.3332	-1.38324
2	0	0	1	0	370.031	-0.552044	-0.552193	-0.00172631	1	-2.05507e-06	40	0.835108	9.53256e-07	0.0000000E+000	2500	0.9995	-1.3873
2	0	0	1	0	370.697	-0.555376	-0.556207	-0.00175007	1	-3.26676e-06	40	0.836154	9.73402e-07	0.0000000E+000	2500	1.6658	-1.39236
2	0	0	1	0	371.363	-0.558707	-0.559272	-0.00182474	1	-4.50655e-06	40	0.837249	1.02053e-06	0.0000000E+000	2500	2.332	-1.39652
2	0	0	1	0	372.03	-0.562039	-0.562375	-0.00185673	1	-5.77684e-06	40	0.838315	1.04418e-06	0.0000000E+000	2500	2.9983	-1.40069
2	0	0	1	0	372.696	-0.56537	-0.566423	-0.00189413	1	-7.07498e-06	40	0.839403	1.07288e-06	0.0000000E+000	2500	3.6646	-1.40583
2	0	0	1	0	373.362	-0.568701	-0.569046	-0.00192282	1	-8.39816e-06	40	0.840523	1.09417e-06	0.0000000E+000	2500	4.3309	-1.40957
2	0	0	1	0	374.029	-0.572033	-0.572759	-0.00197785	1	-9.75213e-06	40	0.841621	1.13283e-06	0.0000000E+000	2500	4.9972	-1.41438
2	0	0	1	0	374.695	-0.575364	-0.575428	-0.00200645	1	-1.11256e-05	40	0.842653	1.15457e-06	0.0000000E+000	2500	5.6635	-1.41808
2	0	0	1	0	375.361	-0.578696	-0.578933	-0.00204075	1	-1.25242e-05	40	0.843771	1.18146e-06	0.0000000E+000	2500	6.3298	-1.4227
2	0	0	1	0	376.027	-0.582027	-0.582017	-0.00210778	1	-1.39556e-05	40	0.844854	1.22677e-06	0.0000000E+000	2500	6.996	-1.42687
2	0	0	1	0	376.694	-0.585359	-0.586027	-0.00211797	1	-1.54137e-05	40	0.845958	1.24119e-06	0.0000000E+000	2500	7.6623	-1.43198
2	0	0	1	0	377.36	-0.58869	-0.589406	-0.00216444	1	-1.68923e-05	40	0.847013	1.27574e-06	0.0000000E+000	2500	8.3286	-1.43642
2	0	0	1	0	378.026	-0.592021	-0.592545	-0.00220689	1	-1.83951e-05	40	0.848097	1.30768e-06	0.0000000E+000	2500	8.9949	-1.44064
2	0	0	1	0	378.693	-0.595353	-0.595846	-0.00223483	1	-1.9921e-05	40	0.849144	1.33162e-06	0.0000000E+000	2500	9.6612	-1.44499
2	0	0	1	0	379.359	-0.598684	-0.598882	-0.0022784	1	-2.14785e-05	40	0.850182	1.36449e-06	0.0000000E+000	2500	10.3275	-1.44906
2	0	0	1	0	380.025	-0.602016	-0.60259	-0.0023272	1	-2.30649e-05	40	0.851246	1.40235e-06	0.0000000E+000	2500	10.9938	-1.45384
2	0	0	1	0	380.691	-0.605347	-0.605724	-0.00237767	1	-2.46857e-05	40	0.852271	1.44021e-06	0.0000000E+000	2500	11.66	-1.458
2	0	0	1	0	381.358	-0.608679	-0.60914	-0.00243805	1	-2.63448e-05	40	0.853354	1.48511e-06	0.0000000E+000	2500	12.3263	-1.46249
2	0	0	1	0	382.024	-0.61201	-0.612089	-0.0024764	1	-2.80275e-05	40	0.854449	1.51578e-06	0.0000000E+000	2500	12.9926	-1.46654
2	0	0	1	0	382.69	-0.615341	-0.615839	-0.00250345	1	-2.974e-05	40	0.855514	1.54172e-06	0.0000000E+000	2500	13.6589	-1.47135
2	0	0	1	0	383.357	-0.618673	-0.618731	-0.00254657	1	-3.14748e-05	40	0.856535	1.57564e-06	0.0000000E+000	2500	14.3252	-1.47527
2	0	0	1	0	384.023	-0.622004	-0.622481	-0.00260892	1	-3.32467e-05	40	0.85761	1.62401e-06	0.0000000E+000	2500	14.9915	-1.48009
2	0	0	1	0	384.689	-0.625336	-0.625733	-0.0026512	1	-3.50509e-05	40	0.858592	1.65894e-06	0.0000000E+000	2500	15.6578	-1.48433
2	0	0	1	0	385.355	-0.628667	-0.629441	-0.0027088	1	-3.6887e-05	40	0.859683	1.70503e-06	0.0000000E+000	2500	16.324	-1.48912
2	0	0	1	0	386.022	-0.631999	-0.632168	-0.00276304	1	-3.8761e-05	40	0.860764	1.74671e-06	0.0000000E+000	2500	16.9903	-1.49293
2	0	0	1	0	386.688	-0.63533	-0.635712	-0.00280898	1	-4.06641e-05	40	0.861824	1.7857e-06	0.0000000E+000	2500	17.6566	-1.49754
2	0	0	1	0	387.354	-0.638661	-0.639202	-0.00286353	1	-4.26017e-05	40	0.862868	1.83038e-06	0.0000000E+000	2500	18.3229	-1.50207
2	0	0	1	0	388.021	-0.641993	-0.642479	-0.0029077	1	-4.45785e-05	40	0.863925	1.86813e-06	0.0000000E+000	2500	18.9892	-1.5064
2	0	0	1	0	388.687	-0.645324	-0.645635	-0.00299023	1	-4.6599e-05	40	0.86504	1.9306e-06	0.0000000E+000	2500	19.6555	-1.51068
2	0	0	1	0	389.353	-0.648656	-0.648823	-0.00303283	1	-4.86583e-05	40	0.866136	1.96777e-06	0.0000000E+000	2500	20.3218	-1.51496
2	0	0	1	0	390.019	-0.651987	-0.652222	-0.00309646	1	-5.0755e-05	40	0.867152	2.01958e-06	0.0000000E+000	2500	20.988	-1.51937
2	0	0	1	0	390.686	-0.655319	-0.655611	-0.00314828	1	-5.28896e-05	40	0.868235	2.06405e-06	0.0000000E+000	2500	21.6543	-1.52385
2	0	0	1	0	391.352	-0.65865	-0.659272	-0.00322117	1	-5.50657e-05	40	0.869282	2.12363e-06	0.0000000E+000	2500	22.3206	-1.52855
2	0	0	1	0	392.018	-0.661982	-0.662528	-0.00332141	1	-5.73093e-05	40	0.870344	2.20053e-06	0.0000000E+000	2500	22.9869	-1.53287
2	0	0	1	0	392.685	-0.665313	-0.665778	-0.00341293	1	-5.96057e-05	40	0.871428	2.27226e-06	0.0000000E+000	2500	23.6532	-1.53721
2	0	0	1	0	393.351	-0.668644	-0.66937	-0.00348242	1	-6.19533e-05	40	0.872548	2.33103e-06	0.0000000E+000	2500	24.3195	-1.54192
2	0	0	1	0	394.017	-0.671976	-0.67244	-0.00357642	1	-6.43602e-05	40	0.873658	2.40493e-06	0.0000000E+000	2500	24.9858	-1.5461
2	0	0	1	0	394.683	-0.675307	-0.675143	-0.00368426	1	-6.68319e-05	40	0.874702	2.48741e-06	0.0000000E+000	2500	25.652	-1.54985
2	0	0	1	0	395.35	-0.678639	-0.678787	-0.00379813	1	-6.93764e-05	40	0.875814	2.57812e-06	0.0000000E+000	2500	26.3183	-1.5546
2	0	0	1	0	396.016	-0.68197	-0.682328	-0.00389988	1	-7.1991e-05	40	0.876946	2.661e-06	0.0000000E+000	2500	26.9846	-1.55927
2	0	0	1	0	396.682	-0.685301	-0.685674	-0.00404021	1	-7.46975e-05	40	0.878109	2.77027e-06	0.0000000E+000	2500	27.6509	-1.56378
2	0	0	1	0	397.349	-0.688633	-0.689133	-0.00423142	1	-7.75125e-05	40	0.879294	2.91601e-06	0.0000000E+000	2500	28.3172	-1.56843
2	0	0	1	0	398.015	-0.691964	-0.6925	-0.00439789	1	-8.04422e-05	40	0.880508	3.04554e-06	0.0000000E+000	2500	28.9835	-1.57301
2	0	0	1	0	398.681	-0.695296	-0.695592	-0.0046018	1	-8.34952e-05	40	0.881766	3.20097e-06	0.0000000E+000	2500	29.6498	-1.57736
2	0	0	1	0	399.347	-0.698627	-0.698878	-0.00484025	1	-8.6695e-05	40	0.883077	3.38274e-06	0.0000000E+000	2500	30.316	-1.58195
2	0	0	1	0	400.014	-0.701959	-0.702393	-0.0050735	1	-9.00582e-05	40	0.88447	3.56359e-06	0.0000000E+000	2500	30.9824	-1.58686
2	0	0	1	0	400.68	-0.70529	-0.70581	-0.00537721	1	-9.36009e-05	40	0.885897	3.79528e-06	0.0000000E+000	2500	31.6486	-1.59171
2	0	0	1	0	401.346	-0.708622	-0.708919	-0.00571238	1	-9.7352e-05	40	0.887382	4.04961e-06	0.0000000E+000	2500	32.3149	-1.5963
2	0	0	1	0	402.013	-0.711953	-0.712574	-0.00605474	1	-0.000101334	40	0.888952	4.31445e-06	0.0000000E+000	2500	32.9812	-1.60153
2	0	0	1	0	402.679	-0.715284	-0.715379	-0.00645658	1	-0.000105562	40	0.890558	4.6189e-06	0.0000000E+000	2500	33.6475	-1.60594
2	0	0	1	0	403.345	-0.718616	-0.71916	-0.00691645	1	-0.000110074	40	0.892341	4.97404e-06	0.0000000E+000	2500	34.3138	-1.6115
2	0	0	1	0	404.012	-0.721947	-0.722267	-0.00736495	1	-0.000114889	40	0.894213	5.31946e-06	0.0000000E+000	2500	34.9801	-1.61648
2	0	0	1	0	404.678	-0.725279	-0.725306	-0.00788183	1	-0.000120032	40	0.89607	5.71673e-06	0.0000000E+000	2500	35.6464	-1.62138
2	0	0	1	0	405.344	-0.72861	-0.728659	-0.00845841	1	-0.00012553	40	0.898052	6.1633e-06	0.0000000E+000	2500	36.3126	-1.62671
2	0	0	1	0	406.01	-0.731942	-0.732516	-0.00907173	1	-0.000131435	40	0.90013	6.64519e-06	0.0000000E+000	2500	36.9789	-1.63265
2	0	0	1	0	406.677	-0.735273	-0.73588	-0.009676	1	-0.000137739	40	0.90226	7.12038e-06	0.0000000E+000	2500	37.6452	-1.63814
2	0	0	1	0	407.343	-0.738604	-0.738915	-0.0102965	1	-0.000144461	40	0.904399	7.60826e-06	0.0000000E+000	2500	38.3115	-1.64331
2	0	0	1	0	408.009	-0.741936	-0.742454	-0.0110082	1	-0.000151632	40	0.906668	8.17311e-06	0.0000000E+000	2500	38.9778	-1.64912
2	0	0	1	0	408.675	-0.745267	-0.745903	-0.0116972	1	-0.000159256	40	0.908937	8.72501e-06	0.0000000E+000	2500	39.644	-1.65484
2	0	0	1	0	409.342	-0.748599	-0.749173	-0.0124278	1	-0.000167357	40	0.911322	9.31058e-06	0.0000000E+000	2500	40.3103	-1.66049
2	0	0	1	0	410.008	-0.75193	-0.752368	-0.0131632	1	-0.000175951	40	0.91361	9.90359e-06	0.0000000E+000	2500	40.9766	-1.66598
2	0	0	1	0	410.674	-0.755262	-0.755597	-0.0139219	1	-0.000185043	40	0.9159	1.05193e-05	0.0000000E+000	2500	41.6429	-1.6715
2	0	0	1	0	411.341	-0.758593	-0.758619	-0.0146868	1	-0.000194636	40	0.918239	1.11416e-05	0.0000000E+000	2500	42.3092	-1.67686
2	0	0	1	0	412.007	-0.761924	-0.762402	-0.0154351	1	-0.000204732	40	0.920534	1.17677e-05	0.0000000E+000	2500	42.9755	-1.68294
2	0	0	1	0	412.673	-0.765256	-0.765801	-0.0161908	1	-0.000215331	40	0.922711	1.23989e-05	0.0000000E+000	2500	43.6418	-1.68851
2	0	0	1	0	413.339	-0.768587	-0.768573	-0.0169731	1	-0.000226449	40	0.924926	1.30451e-05	0.0000000E+000	2500	44.308	-1.6935
2	0	0	1	0	414.006	-0.771919	-0.772167	-0.0177456	1	-0.000238083	40	0.927054	1.37025e-05	0.0000000E+000	2500	44.9744	-1.69922
2	0	0	1	0	414.672	-0.77525	-0.775472	-0.0185497	1	-0.000250242	40	0.929284	1.43848e-05	0.0000000E+000	2500	45.6406	-1.70476
2	0	0	1	0	415.338	-0.778582	-0.779004	-0.0192952	1	-0.000262923	40	0.931473	1.5031e-05	0.0000000E+000	2500	46.3069	-1.71048
2	0	0	1	0	416.005	-0.781913	-0.781302	-0.0200962	1	-0.000276116	40	0.933523	1.57012e-05	0.0000000E+000	2500	46.9732	-1.71482
2	0	0	1	0	416.671	-0.785244	-0.784724	-0.0208534	1	-0.000289821	40	0.935578	1.63642e-05	0.0000000E+000	2500	47.6395	-1.7203
2	0	0	1	0	417.337	-0.788576	-0.789013	-0.021636	1	-0.000304057	40	0.937617	1.70711e-05	0.0000000E+000	2500	48.3058	-1.72663
2	0	0	1	0	418.004	-0.791907	-0.792409	-0.0223954	1	-0.0003188	40	0.939541	1.77463e-05	0.0000000E+000	2500	48.9721	-1.73195
2	0	0	1	0	418.67	-0.795239	-0.795574	-0.0231898	1	-0.000334064	40	0.941503	1.84492e-05	0.0000000E+000	2500	49.6384	-1.73708
2	0	0	1	0	419.336	-0.79857	-0.798885	-0.0239534	1	-0.000349837	40	0.943289	1.9136e-05	0.0000000E+000	2500	50.3046	-1.74217
2	0	0	1	0	420.002	-0.801902	-0.802303	-0.0247272	1	-0.000366111	40	0.945095	1.98387e-05	0.0000000E+000	2500	50.9709	-1.7474
2	0	0	1	0	420.669	-0.805233	-0.804875	-0.0254499	1	-0.000382911	40	0.946827	2.0484e-05	0.0000000E+000	2500	51.6372	-1.7517
2	0	0	1	0	421.335	-0.808564	-0.80889	-0.0262622	1	-0.000400217	40	0.948645	2.12432e-05	0.0000000E+000	2500	52.3035	-1.75753
2	0	0	1	0	422.001	-0.811896	-0.811718	-0.0270393	1	-0.00041804	40	0.950324	2.19483e-05	0.0000000E+000	2500	52.9698	-1.76204
2	0	0	1	0	422.668	-0.815227	-0.816021	-0.0278248	1	-0.000436388	40	0.952036	2.27056e-05	0.0000000E+000	2500	53.6361	-1.76806
2	0	0	1	0	423.334	-0.818559	-0.819115	-0.0286573	1	-0.000455273	40	0.953691	2.34736e-05	0.0000000E+000	2500	54.3024	-1.77281
2	0	0	1	0	424	-0.82189	-0.822397	-0.0294168	1	-0.000474679	40	0.955363	2.41923e-05	0.0000000E+000	2500	54.9686	-1.77776
2	0	0	1	0	424.666	-0.825222	-0.825588	-0.0301954	1	-0.000494603	40	0.956964	2.49289e-05	0.0000000E+000	2500	55.6349	-1.78255
2	0	0	1	0	425.333	-0.828553	-0.829018	-0.0310149	1	-0.000515064	40	0.958566	2.5712e-05	0.0000000E+000	2500	56.3012	-1.78758
2	0	0	1	0	425.999	-0.831884	-0.832045	-0.0317899	1	-0.000536049	40	0.960131	2.64506e-05	0.0000000E+000	2500	56.9675	-1.79218
2	0	0	1	0	426.665	-0.835216	-0.835499	-0.0326361	1	-0.000557579	40	0.961656	2.72674e-05	0.0000000E+000	2500	57.6338	-1.79715
2	0	0	1	0	427.332	-0.838547	-0.839217	-0.0334462	1	-0.000579656	40	0.963202	2.80686e-05	0.0000000E+000	2500	58.3001	-1.80242
2	0	0	1	0	427.998	-0.841879	-0.842919	-0.0342577	1	-0.000602276	40	0.964705	2.88765e-05	0.0000000E+000	2500	58.9664	-1.80762
2	0	0	1	0	428.664	-0.84521	-0.846114	-0.0350757	1	-0.000625443	40	0.966108	2.9678e-05	0.0000000E+000	2500	59.6326	-1.81222
2	0	0	1	0	429.33	-0.848542	-0.848525	-0.035947	1	-0.000649183	40	0.967621	3.05019e-05	0.0000000E+000	2500	60.2989	-1.81615
2	0	0	1	0	429.997	-0.851873	-0.852192	-0.0368246	1	-0.000673482	40	0.969043	3.13817e-05	0.0000000E+000	2500	60.9652	-1.82123
2	0	0	1	0	430.663	-0.855205	-0.855356	-0.0377054	1	-0.000698376	40	0.970413	3.22515e-05	0.0000000E+000	2500	61.6315	-1.82577
2	0	0	1	0	431.329	-0.858536	-0.858975	-0.0386093	1	-0.000723867	40	0.971844	3.31644e-05	0.0000000E+000	2500	62.2978	-1.83082
2	0	0	1	0	431.996	-0.861867	-0.86252	-0.039541	1	-0.000749971	40	0.97324	3.41049e-05	0.0000000E+000	2500	62.9641	-1.83576
2	0	0	1	0	432.662	-0.865199	-0.866157	-0.0404686	1	-0.000776695	40	0.974663	3.50522e-05	0.0000000E+000	2500	63.6304	-1.84082
2	0	0	1	0	433.328	-0.86853	-0.868667	-0.0414296	1	-0.000804044	40	0.976042	3.59885e-05	0.0000000E+000	2500	64.2966	-1.84471
2	0	0	1	0	433.994	-0.871862	-0.872233	-0.0424145	1	-0.000832043	40	0.97748	3.69953e-05	0.0000000E+000	2500	64.9629	-1.84971
2	0	0	1	0	434.661	-0.875193	-0.875622	-0.0433956	1	-0.000860698	40	0.9788	3.79981e-05	0.0000000E+000	2500	65.6292	-1.85442
2	0	0	1	0	435.327	-0.878524	-0.878981	-0.0444171	1	-0.00089003	40	0.980225	3.90418e-05	0.0000000E+000	2500	66.2955	-1.85921
2	0	0	1	0	435.993	-0.881856	-0.881876	-0.0454854	1	-0.000920047	40	0.981572	4.01125e-05	0.0000000E+000	2500	66.9618	-1.86345
2	0	0	1	0	436.66	-0.885187	-0.885409	-0.0465653	1	-0.000950785	40	0.982918	4.12294e-05	0.0000000E+000	2500	67.6281	-1.86833
2	0	0	1	0	437.326	-0.888519	-0.888949	-0.0476793	1	-0.000982258	40	0.984254	4.23845e-05	0.0000000E+000	2500	68.2944	-1.8732
2	0	0	1	0	437.992	-0.89185	-0.892466	-0.0488333	1	-0.00101449	40	0.985627	4.3582e-05	0.0000000E+000	2500	68.9606	-1.87809
2	0	0	1	0	438.658	-0.895182	-0.895906	-0.0500251	1	-0.0010475	40	0.986936	4.48178e-05	0.0000000E+000	2500	69.6269	-1.88284
2	0	0	1	0	439.325	-0.898513	-0.898967	-0.051228	1	-0.0010813	40	0.988321	4.60523e-05	0.0000000E+000	2500	70.2932	-1.88729
2	0	0	1	0	439.991	-0.901844	-0.902595	-0.0524767	1	-0.00111594	40	0.989633	4.73652e-05	0.0000000E+000	2500	70.9595	-1.89223
2	0	0	1	0	440.657	-0.905176	-0.906215	-0.0537801	1	-0.00115143	40	0.991003	4.87364e-05	0.0000000E+000	2500	71.6258	-1.89722
2	0	0	1	0	441.324	-0.908507	-0.909321	-0.0550992	1	-0.00118778	40	0.992398	5.01029e-05	0.0000000E+000	2500	72.2921	-1.90172
2	0	0	1	0	441.99	-0.911839	-0.912347	-0.0564467	1	-0.00122502	40	0.993741	5.1499e-05	0.0000000E+000	2500	72.9584	-1.90609
2	0	0	1	0	442.656	-0.91517	-0.915614	-0.057825	1	-0.00126318	40	0.995003	5.29454e-05	0.0000000E+000	2500	73.6246	-1.91062
2	0	0	1	0	443.322	-0.918502	-0.919277	-0.0592965	1	-0.00130229	40	0.996413	5.45099e-05	0.0000000E+000	2500	74.2909	-1.91569
2	0	0	1	0	443.989	-0.921833	-0.921801	-0.0607596	1	-0.00134234	40	0.997746	5.60083e-05	0.0000000E+000	2500	74.9572	-1.91955
2	0	0	1	0	444.655	-0.925165	-0.925867	-0.062238	1	-0.00138341	40	0.99907	5.76242e-05	0.0000000E+000	2500	75.6235	-1.92494
2	0	0	1	0	445.321	-0.928496	-0.928693	-0.0637946	1	-0.0014255	40	1.00044	5.92456e-05	0.0000000E+000	2500	76.2898	-1.92914
2	0	0	1	0	445.988	-0.931827	-0.932118	-0.0654276	1	-0.00146864	40	1.00182	6.09862e-05	0.0000000E+000	2500	76.9561	-1.93393
2	0	0	1	0	446.654	-0.935159	-0.935652	-0.0670189	1	-0.00151286	40	1.00308	6.27063e-05	0.0000000E+000	2500	77.6224	-1.93873
2	0	0	1	0	447.32	-0.93849	-0.938815	-0.0686679	1	-0.00155815	40	1.00441	6.44664e-05	0.0000000E+000	2500	78.2886	-1.94323
2	0	0	1	0	447.986	-0.941822	-0.942184	-0.070367	1	-0.00160457	40	1.00571	6.62987e-05	0.0000000E+000	2500	78.9549	-1.94789
2	0	0	1	0	448.653	-0.945153	-0.945655	-0.0721248	1	-0.00165216	40	1.00715	6.82052e-05	0.0000000E+000	2500	79.6212	-1.95281
2	0	0	1	0	449.319	-0.948485	-0.949237	-0.0739103	1	-0.00170091	40	1.00838	7.01584e-05	0.0000000E+000	2500	80.2875	-1.95761
2	0	0	1	0	449.985	-0.951816	-0.952097	-0.0757224	1	-0.00175086	40	1.00969	7.20951e-05	0.0000000E+000	2500	80.9538	-1.96178
2	0	0	1	0	450.652	-0.955147	-0.955201	-0.0776211	1	-0.00180204	40	1.01101	7.41438e-05	0.0000000E+000	2500	81.6201	-1.96621
2	0	0	1	0	451.318	-0.958479	-0.958945	-0.0794789	1	-0.00185445	40	1.01233	7.62159e-05	0.0000000E+000	2500	82.2864	-1.97127
2	0	0	1	0	451.984	-0.96181	-0.962092	-0.0814015	1	-0.00190814	40	1.01354	7.83157e-05	0.0000000E+000	2500	82.9526	-1.97563
2	0	0	1	0	452.65	-0.965142	-0.965436	-0.0833847	1	-0.00196315	40	1.01483	8.05027e-05	0.0000000E+000	2500	83.6189	-1.98027
2	0	0	1	0	453.317	-0.968473	-0.96845	-0.0853634	1	-0.00201948	40	1.01614	8.26702e-05	0.0000000E+000	2500	84.2852	-1.98459
2	0	0	1	0	453.983	-0.971804	-0.972586	-0.0874235	1	-0.00207716	40	1.01738	8.50269e-05	0.0000000E+000	2500	84.9515	-1.98997
2	0	0	1	0	454.649	-0.975136	-0.97534	-0.0896249	1	-0.00213625	40	1.01869	8.74148e-05	0.0000000E+000	2500	85.6178	-1.99403
2	0	0	1	0	455.316	-0.978467	-0.978899	-0.0918569	1	-0.00219681	40	1.02003	8.99186e-05	0.0000000E+000	2500	86.2841	-1.99893
2	0	0	1	0	455.982	-0.981799	-0.982036	-0.0941	1	-0.00225887	40	1.02129	9.24096e-05	0.0000000E+000	2500	86.9504	-2.00333
2	0	0	1	0	456.648	-0.98513	-0.985426	-0.0965413	1	-0.00232248	40	1.02267	9.51343e-05	0.0000000E+000	2500	87.6166	-2.0081
2	0	0	1	0	457.314	-0.988462	-0.988785	-0.0989863	1	-0.00238774	40	1.024	9.78762e-05	0.0000000E+000	2500	88.2829	-2.01278
2	0	0	1	0	457.981	-0.991793	-0.992152	-0.101634	1	-0.00245469	40	1.0253	0.000100837	0.0000000E+000	2500	88.9492	-2.01745
2	0	0	1	0	458.647	-0.995125	-0.995428	-0.104319	1	-0.00252342	40	1.02669	0.000103842	0.0000000E+000	2500	89.6155	-2.02212
2	0	0	1	0	459.313	-0.998456	-0.998726	-0.10716	1	-0.00259402	40	1.02808	0.000107023	0.0000000E+000	2500	90.2818	-2.0268
2	0	0	1	0	459.98	-1.00179	-1.00171	-0.110044	1	-0.00266651	40	1.02942	0.000110232	0.0000000E+000	2500	90.9481	-2.03112
2	0	0	1	0	460.646	-1.00512	-1.00515	-0.113149	1	-0.00274098	40	1.03075	0.000113731	0.0000000E+000	2500	91.6144	-2.0359
2	0	0	1	0	461.312	-1.00845	-1.00892	-0.116349	1	-0.00281755	40	1.03225	0.000117387	0.0000000E+000	2500	92.2806	-2.04117
2	0	0	1	0	461.978	-1.01178	-1.01226	-0.119562	1	-0.00289629	40	1.03366	0.000121028	0.0000000E+000	2500	92.9469	-2.04592
2	0	0	1	0	462.645	-1.01511	-1.01499	-0.12297	1	-0.00297725	40	1.0351	0.000124814	0.0000000E+000	2500	93.6132	-2.05009
2	0	0	1	0	463.311	-1.01844	-1.01868	-0.126519	1	-0.00306053	40	1.03657	0.000128883	0.0000000E+000	2500	94.2795	-2.05525
2	0	0	1	0	463.977	-1.02178	-1.02223	-0.130182	1	-0.0031462	40	1.03801	0.000133076	0.0000000E+000	2500	94.9458	-2.06024
2	0	0	1	0	464.644	-1.02511	-1.0253	-0.133912	1	-0.00323434	40	1.03952	0.000137301	0.0000000E+000	2500	95.6121	-2.06482
2	0	0	1	0	465.31	-1.02844	-1.02819	-0.137759	1	-0.00332501	40	1.04102	0.000141643	0.0000000E+000	2500	96.2784	-2.06921
2	0	0	1	0	465.976	-1.03177	-1.0323	-0.141741	1	-0.00341829	40	1.04249	0.000146319	0.0000000E+000	2500	96.9446	-2.07479
2	0	0	1	0	466.642	-1.0351	-1.03558	-0.145848	1	-0.00351427	40	1.04399	0.000151038	0.0000000E+000	2500	97.6109	-2.07957
2	0	0	1	0	467.309	-1.03843	-1.03885	-0.150028	1	-0.00361302	40	1.04541	0.000155856	0.0000000E+000	2500	98.2772	-2.08426
2	0	0	1	0	467.975	-1.04176	-1.04225	-0.154312	1	-0.0037146	40	1.047	0.000160832	0.0000000E+000	2500	98.9435	-2.08926
2	0	0	1	0	468.641	-1.0451	-1.04578	-0.158801	1	-0.0038191	40	1.04847	0.000166071	0.0000000E+000	2500	99.6098	-2.09425
2	0	0	1	0	469.308	-1.04843	-1.04833	-0.163371	1	-0.00392662	40	1.05	0.000171267	0.0000000E+000	2500	100.276	-2.09833
2	0	0	1	0	469.974	-1.05176	-1.05231	-0.16811	1	-0.00403725	40	1.05156	0.000176904	0.0000000E+000	2500	100.942	-2.10388
2	0	0	1	0	470.64	-1.05509	-1.05585	-0.172876	1	-0.00415102	40	1.0531	0.000182531	0.0000000E+000	2500	101.609	-2.10895
2	0	0	1	0	471.306	-1.05842	-1.05872	-0.177738	1	-0.00426801	40	1.05463	0.000188175	0.0000000E+000	2500	102.275	-2.11334
2	0	0	1	0	471.973	-1.06175	-1.06201	-0.18278	1	-0.00438831	40	1.05616	0.000194114	0.0000000E+000	2500	102.941	-2.11817
2	0	0	1	0	472.639	-1.06508	-1.06531	-0.187961	1	-0.00451202	40	1.05774	0.000200236	0.0000000E+000	2500	103.607	-2.12305
2	0	0	1	0	473.305	-1.06842	-1.06917	-0.193186	1	-0.00463921	40	1.0593	0.000206549	0.0000000E+000	2500	104.274	-2.12848
2	0	0	1	0	473.972	-1.07175	-1.0732	-0.198895	1	-0.00477004	40	1.0609	0.000213453	0.0000000E+000	2500	104.94	-2.13409
2	0	0	1	0	474.638	-1.07508	-1.07599	-0.204326	1	-0.00490461	40	1.0625	0.000219854	0.0000000E+000	2500	105.606	-2.13849
2	0	0	1	0	475.304	-1.07841	-1.07929	-0.210083	1	-0.00504286	40	1.06394	0.000226741	0.0000000E+000	2500	106.273	-2.14324
2	0	0	1	0	475.97	-1.08174	-1.08207	-0.216003	1	-0.00518502	40	1.06556	0.00023373	0.0000000E+000	2500	106.939	-2.14763
2	0	0	1	0	476.637	-1.08507	-1.08573	-0.22194	1	-0.00533115	40	1.06713	0.000240966	0.0000000E+000	2500	107.605	-2.15286
2	0	0	1	0	477.303	-1.0884	-1.08908	-0.228086	1	-0.0054813	40	1.06871	0.000248403	0.0000000E+000	2500	108.271	-2.15778
2	0	0	1	0	477.969	-1.09174	-1.09212	-0.234172	1	-0.0056355	40	1.07028	0.000255746	0.0000000E+000	2500	108.938	-2.16241
2	0	0	1	0	478.636	-1.09507	-1.09582	-0.240623	1	-0.00579393	40	1.07186	0.000263679	0.0000000E+000	2500	109.604	-2.16768
2	0	0	1	0	479.302	-1.0984	-1.09911	-0.247245	1	-0.0059567	40	1.07347	0.00027175	0.0000000E+000	2500	110.27	-2.17258
2	0	0	1	0	479.968	-1.10173	-1.10168	-0.253963	1	-0.00612388	40	1.07511	0.000279786	0.0000000E+000	2500	110.937	-2.17679
2	0	0	1	0	480.634	-1.10506	-1.10557	-0.260784	1	-0.00629566	40	1.07674	0.000288316	0.0000000E+000	2500	111.603	-2.18232
2	0	0	1	0	481.301	-1.10839	-1.10927	-0.267722	1	-0.00647199	40	1.07836	0.000296978	0.0000000E+000	2500	112.269	-2.18764
2	0	0	1	0	481.967	-1.11172	-1.11249	-0.27479	1	-0.00665298	40	1.08001	0.000305702	0.0000000E+000	2500	112.935	-2.1925
2	0	0	1	0	482.633	-1.11506	-1.11573	-0.282187	1	-0.00683881	40	1.08164	0.000314843	0.0000000E+000	2500	113.602	-2.19737
2	0	0	1	0	483.3	-1.11839	-1.11892	-0.289729	1	-0.00702961	40	1.08337	0.000324185	0.0000000E+000	2500	114.268	-2.20229
2	0	0	1	0	483.966	-1.12172	-1.12225	-0.297306	1	-0.00722549	40	1.08509	0.00033365	0.0000000E+000	2500	114.934	-2.20734
2	0	0	1	0	484.632	-1.12505	-1.12551	-0.305326	1	-0.0074265	40	1.08678	0.000343647	0.0000000E+000	2500	115.601	-2.21229
2	0	0	1	0	485.298	-1.12838	-1.12919	-0.313249	1	-0.00763284	40	1.0885	0.000353717	0.0000000E+000	2500	116.267	-2.21769
2	0	0	1	0	485.965	-1.13171	-1.13257	-0.321462	1	-0.00784462	40	1.09021	0.000364077	0.0000000E+000	2500	116.933	-2.22278
2	0	0	1	0	486.631	-1.13504	-1.13565	-0.329742	1	-0.00806183	40	1.09192	0.000374472	0.0000000E+000	2500	117.599	-2.22757
2	0	0	1	0	487.297	-1.13838	-1.13946	-0.338282	1	-0.0082847	40	1.09371	0.000385458	0.0000000E+000	2500	118.266	-2.23317
2	0	0	1	0	487.964	-1.14171	-1.14231	-0.347346	1	-0.00851344	40	1.0954	0.000396777	0.0000000E+000	2500	118.932	-2.23771
2	0	0	1	0	488.63	-1.14504	-1.14548	-0.356223	1	-0.00874812	40	1.09709	0.000408045	0.0000000E+000	2500	119.598	-2.24256
2	0	0	1	0	489.296	-1.14837	-1.14934	-0.365462	1	-0.00898882	40	1.09888	0.00042004	0.0000000E+000	2500	120.265	-2.24822
2	0	0	1	0	489.962	-1.1517	-1.15203	-0.374831	1	-0.00923576	40	1.10087	0.000431816	0.0000000E+000	2500	120.931	-2.25289
2	0	0	1	0	490.629	-1.15503	-1.15565	-0.384311	1	-0.00948891	40	1.10295	0.00044413	0.0000000E+000	2500	121.597	-2.25861
2	0	0	1	0	491.295	-1.15836	-1.15843	-0.393948	1	-0.00974851	40	1.10492	0.000456361	0.0000000E+000	2500	122.263	-2.26335
2	0	0	1	0	491.961	-1.1617	-1.16227	-0.404103	1	-0.0100147	40	1.10686	0.000469676	0.0000000E+000	2500	122.93	-2.26913
2	0	0	1	0	492.628	-1.16503	-1.16547	-0.414543	1	-0.0102878	40	1.10864	0.000483136	0.0000000E+000	2500	123.596	-2.2741
2	0	0	1	0	493.294	-1.16836	-1.1688	-0.425189	1	-0.0105679	40	1.1105	0.000496962	0.0000000E+000	2500	124.262	-2.2793
2	0	0	1	0	493.96	-1.17169	-1.17209	-0.436038	1	-0.0108551	40	1.11221	0.000511077	0.0000000E+000	2500	124.929	-2.28431
2	0	0	1	0	494.626	-1.17502	-1.17572	-0.447084	1	-0.0111497	40	1.11417	0.000525644	0.0000000E+000	2500	125.595	-2.28988
2	0	0	1	0	495.293	-1.17835	-1.17861	-0.458278	1	-0.0114517	40	1.11608	0.000540133	0.0000000E+000	2500	126.261	-2.2947
2	0	0	1	0	495.959	-1.18168	-1.18227	-0.469825	1	-0.0117612	40	1.1179	0.000555459	0.0000000E+000	2500	126.927	-2.30017
2	0	0	1	0	496.625	-1.18502	-1.18552	-0.482062	1	-0.0120788	40	1.11986	0.000571493	0.0000000E+000	2500	127.594	-2.30538
2	0	0	1	0	497.292	-1.18835	-1.18891	-0.494073	1	-0.0124043	40	1.12182	0.00058741	0.0000000E+000	2500	128.26	-2.31073
2	0	0	1	0	497.958	-1.19168	-1.19215	-0.506221	1	-0.012738	40	1.12386	0.00060349	0.0000000E+000	2500	128.926	-2.31601
2	0	0	1	0	498.624	-1.19501	-1.19542	-0.518874	1	-0.01308	40	1.12584	0.000620273	0.0000000E+000	2500	129.593	-2.32126
2	0	0	1	0	499.29	-1.19834	-1.19908	-0.532065	1	-0.0134304	40	1.12781	0.000637991	0.0000000E+000	2500	130.259	-2.32689
2	0	0	1	0	499.957	-1.20167	-1.20174	-0.544814	1	-0.0137895	40	1.12985	0.000654726	0.0000000E+000	2500	130.925	-2.33159
2	0	0	1	0	500.623	-1.205	-1.20523	-0.558156	1	-0.0141575	40	1.13205	0.000672709	0.0000000E+000	2500	131.591	-2.33728
2	0	0	1	0	501.289	-1.20834	-1.20902	-0.571409	1	-0.0145343	40	1.13412	0.000690847	0.0000000E+000	2500	132.258	-2.34315
2	0	0	1	0	501.956	-1.21167	-1.21226	-0.585663	1	-0.0149203	40	1.13608	0.000709978	0.0000000E+000	2500	132.924	-2.34835
2	0	0	1	0	502.622	-1.215	-1.21537	-0.599479	1	-0.0153155	40	1.13813	0.00072859	0.0000000E+000	2500	133.59	-2.3535
2	0	0	1	0	503.288	-1.21833	-1.21884	-0.614016	1	-0.0157202	40	1.14019	0.000748389	0.0000000E+000	2500	134.257	-2.35903
2	0	0	1	0	503.954	-1.22166	-1.2224	-0.62889	1	-0.0161348	40	1.14227	0.000768755	0.0000000E+000	2500	134.923	-2.36468
2	0	0	1	0	504.621	-1.22499	-1.22597	-0.643756	1	-0.0165592	40	1.14442	0.000789225	0.0000000E+000	2500	135.589	-2.37039
2	0	0	1	0	505.287	-1.22832	-1.22855	-0.659741	1	-0.0169939	40	1.1466	0.000810528	0.0000000E+000	2500	136.255	-2.37516
2	0	0	1	0	505.953	-1.23166	-1.23173	-0.674896	1	-0.0174389	40	1.14875	0.000831288	0.0000000E+000	2500	136.922	-2.38047
2	0	0	1	0	506.62	-1.23499	-1.2359	-0.690559	1	-0.0178943	40	1.15097	0.000853464	0.0000000E+000	2500	137.588	-2.38687
2	0	0	1	0	507.286	-1.23832	-1.23792	-0.706486	1	-0.0183603	40	1.15313	0.000874572	0.0000000E+000	2500	138.254	-2.39105
2	0	0	1	0	507.952	-1.24165	-1.24206	-0.722879	1	-0.018837	40	1.15521	0.000897861	0.0000000E+000	2500	138.921	-2.39727
2	0	0	1	0	508.618	-1.24498	-1.24564	-0.739272	1	-0.0193246	40	1.15748	0.000920868	0.0000000E+000	2500	139.587	-2.40313
2	0	0	1	0	508.789	-1.24598	-1.24637	-0.736436	1	-0.0194509	40	1.1628	0.00091787	0.0000000E+000	2500	139.758	-2.40917